Folder: nomad-auto-xrd/src/nomad_auto_xrd/example_uploads/auto_xrd/Spectra

Note: README.md
<img width="2981" height="911" alt="image" src="https://github.com/user-attachments/assets/8a8a5818-0777-41ed-965f-06180ce0162c" />

A NOMAD plugin providing schemas, [Actions](https://nomad-lab.eu/prod/v1/docs/howto/plugins/types/actions.html),
and a search app for supporting automated XRD analysis using ML models.
Combined with
[nomad-measurements](https://github.com/FAIRmat-NFDI/nomad-measurements) plugin, it provides a comprehensive
solution for your NOMAD Oasis to create XRD measurement entries using raw files from the instrument and
perform automated phase identification on them.

## Availability

This plugin is hosted on [NOMAD's example Oasis](https://nomad-lab.eu/prod/v1/oasis/gui/). 
You can create an entry with the built-in schemas `Auto XRD Analysis Action`, add an XRD
measurement entry and an Auto XRD model entry to it, and trigger a phase identification
analysis. You can also use a dedicated search app to look up available Auto XRD model
entries [here](https://nomad-lab.eu/prod/v1/oasis/gui/search/auto-xrd-models).

## Adding this plugin to NOMAD Oasis

The plugin can be added to a
[NOMAD Oasis](https://nomad-lab.eu/prod/v1/docs/reference/glossary.html#deployment-nomad-oasis)
instance in a few steps, provided that you have access to the repository hosting the Oasis.

Make sure to add [nomad-measurements](https://github.com/FAIRmat-NFDI/nomad-measurements) plugin
that contains relevant schemas and parsers for creating XRD measurement entries.

Read the [NOMAD plugin documentation](https://nomad-lab.eu/prod/v1/docs/howto/oasis/configure.html#plugins)
for all details on how to deploy the plugin on your NOMAD instance. If you wanna get started with a new Oasis,
start [here](https://nomad-lab.eu/prod/v1/docs/howto/oasis/install.html#how-to-install-a-nomad-oasis).

## Development

If you want to develop locally this plugin, clone the project and in the plugin folder, create a virtual environment (you can use Python 3.9, 3.10, or 3.11):
```sh
git clone https://github.com/foo/nomad-auto-xrd.git
cd nomad-auto-xrd
python3.11 -m venv .pyenv
. .pyenv/bin/activate
```

Make sure to have `pip` upgraded:
```sh
pip install --upgrade pip
```

We recommend installing `uv` for fast pip installation of the packages:
```sh
pip install uv
```

Install the `nomad-lab` package:
```sh
uv pip install '.[dev]' --index-url https://gitlab.mpcdf.mpg.de/api/v4/projects/2187/packages/pypi/simple
```

**Note!**
Until we have an official pypi NOMAD release with the plugins functionality make
sure to include NOMAD's internal package registry (via `--index-url` in the above command).

The plugin is still under development. If you would like to contribute, install the package in editable mode (with the added `-e` flag):
```sh
uv pip install -e '.[dev]' --index-url https://gitlab.mpcdf.mpg.de/api/v4/projects/2187/packages/pypi/simple
```


### Run the tests

You can run locally the tests:
```sh
python -m pytest -sv tests
```

where the `-s` and `-v` options toggle the o

File: mittma_0019_R_slowscans.xy
25	2151.667	25	2006.667
25.19	1998.333	25.19	2078.333
25.38	1931.667	25.38	1911.667
25.57	1920	25.57	2005
25.76	1915	25.76	1815
25.95	1871.667	25.95	1870
26.14	1826.667	26.14	1806.667
26.33	1766.667	26.33	1780
26.52	1736.667	26.52	1671.667
26.71	1788.333	26.71	1691.667
26.9	1663.333	26.9	1788.333
27.09	1753.333	27.09	1688.333
27.28	1683.333	27.28	1670
27.47	1708.333	27.47	1640
27.66	1763.333	27.66	1723.333
27.85	1915	27.85	1775
28.04	1606.667	28.04	1706.667
28.23	1606.667	28.23	1485
28.42	1495	28.42	1505
28.61	1496.667	28.61	1471.667
28.8	1488.333	28.8	1541.667
28.99	1466.667	28.99	1366.667
29.18	1421.667	29.18	1363.333
29.37	1433.333	29.37	1370
29.56	1346.667	29.56	1363.333
29.75	1420	29.75	1365
29.94	1340	29.94	1298.333
30.13	1375	30.13	1281.667
30.32	1306.667	30.32	1320
30.51	1318.333	30.51	1243.333
30.7	1248.333	30.7	1250
30.89	1288.333	30.89	1321.667
31.08	1233.333	31.08	1195
31.27	1243.333	31.27	1163.333
31.46	1325	31.46	1231.667
31.65	1198.333	31.65	1270
31.84	1251.667	31.84	1183.333
32.03	1256.667	32.03	1386.667
32.22	1241.667	32.22	1230
32.41	1196.667	32.41	1141.667
32.6	1190	32.6	1060
32.79	1068.333	32.79	1121.667
32.98	1073.333	32.98	993.3333
33.17	998.3333	33.17	1005
33.36	1035	33.36	946.6667
33.55	985	33.55	983.3333
33.74	1008.333	33.74	1050
33.93	1015	33.93	960
34.12	921.6667	34.12	915
34.31	885	34.31	968.3333
34.5	956.6667	34.5	900
34.69	916.6667	34.69	916.6667
34.88	955	34.88	878.3333
35.07	905	35.07	875
35.26	918.3333	35.26	851.6667
35.45	878.3333	35.45	791.6667
35.64	843.3333	35.64	901.6667
35.83	856.6667	35.83	778.3333
36.02	835	36.02	816.6667
36.21	805	36.21	800
36.4	831.6667	36.4	783.3333
36.59	793.3333	36.59	730
36.78	791.6667	36.78	740
36.97	776.6667	36.97	813.3333
37.16	711.6667	37.16	750
37.35	710	37.35	738.3333
37.54	725	37.54	728.3333
37.73	750	37.73	718.3333
37.92	665	37.92	655
38.11	770	38.11	693.3333
38.3	635	38.3	661.6667
38.49	661.6667	38.49	660
38.68	666.6667	38.68	668.3333
38.87	606.6667	38.87	595
39.06	658.3333	39.06	651.6667
39.25	601.6667	39.25	633.3333
39.44	648.3333	39.44	610
39.63	671.6667	39.63	625
39.82	621.6667	39.82	570
40.01	600	40.01	620
40.2	618.3333	40.2	573.3333
40.39	536.6667	40.39	638.3333
40.58	605	40.58	583.3333
40.77	565	40.77	558.3333
40.96	580	40.96	581.6667
41.15	560	41.15	550
41.34	580	41.34	551.6667
41.53	545	41.53	546.6667
41.72	583.3333	41.72	561.6667
41.91	530	41.91	501.6667
42.1	570	42.1	565
42.29	498.3333	42.29	506.6667
42.48	545	42.48	476.6667
42.67	478.3333	42.67	515
42.86	518.3333	42.86	471.6667
43.05	533.3333	43.05	521.6667
43.24	463.3333	43.24	481.6667
43.43	406.6667	43.43	478.3333
43.62	516.6667	43.62	451.6667
43.81	498.3333	43.81	470
44	456.6667	44	488.3333
44.19	471.6667	44.19	446.6667
44.38	455	44.38	438.3333
44.57	430	44.57	461.6667
44.76	483.3333	44.76	443.3333
44.95	475	44.95	433.3333
45.14	473.3333	45.14	440
45.33	456.6667	45.33	431.6667
45.52	458.3333	45.52	431.6667
45.71	465	45.71	460
45.9	438.3333	45.9	438.3333
46.09	535	46.09	455
46.28	555	46.28	438.3333
46.47	511.6667	46.47	490
46.66	410	46.66	453.3333
46.85	396.6667	46.85	431.6667
47.04	390	47.04	376.6667
47.23	365	47.23	421.6667
47.42	458.3333	47.42	335
47.61	421.6667	47.61	401.6667
47.8	378.3333	47.8	368.3333
47.99	390	47.99	390
48.18	386.6667	48.18	350
48.37	373.3333	48.37	398.3333
48.56	385	48.56	363.3333
48.75	393.3333	48.75	366.6667
48.94	393.3333	48.94	398.3333
49.13	360	49.13	376.6667
49.32	383.3333	49.32	341.6667
49.51	356.6667	49.51	345
49.7	401.6667	49.7	331.6667
49.89	388.3333	49.89	366.6667
50.08	311.6667	50.08	383.3333
50.27	358.3333	50.27	378.3333
50.46	348.3333	50.46	373.3333
50.65	338.3333	50.65	353.3333
50.84	361.6667	50.84	336.6667
51.03	321.6667	51.03	326.6667
51.22	381.6667	51.22	340
51.41	370	51.41	311.6667
51.6	303.3333	51.6	361.6667
51.79	321.6667	51.79	333.3333
51.98	328.3333	51.98	326.6667
52.17	296.6667	52.17	341.6667
52.36	385	52.36	316.6667
52.55	348.3333	52.55	340
52.74	328.3333	52.74	343.3333
52.93	323.3333	52.93	351.6667
53.12	310	53.12	331.6667
53.31	315	53.31	298.3333
53.5	323.3333	53.5	281.6667
53.69	336.6667	53.69	318.3333
53.88	310	53.88	296.6667
54.07	331.6667	54.07	325
54.26	318.3333	54.26	350
54.45	305	54.45	315
54.64	343.3333	54.64	310
54.83	346.6667	54.83	318.3333
55.02	325	55.02	300
55.21	286.6667	55.21	331.6667
55.4	293.3333	55.4	278.3333
55.59	323.3333	55.59	311.6667
55.78	285	55.78	295
55.97	275	55.97	325
56.16	296.6667	56.16	278.3333
56.35	285	56.35	305
56.54	315	56.54	338.3333
56.73	306.6667	56.73	266.6667
56.92	298.3333	56.92	300
57.11	283.3333	57.11	308.3333
57.3	308.3333	57.3	285
57.49	311.6667	57.49	296.6667
57.68	331.6667	57.68	310
57.87	308.3333	57.87	275
58.06	308.3333	58.06	286.6667
58.25	278.3333	58.25	293.3333
58.44	301.6667	58.44	305
58.63	336.6667	58.63	290
58.82	290	58.82	296.6667
59.01	311.6667	59.01	298.3333
59.2	336.6667	59.2	293.3333
59.39	306.6667	59.39	285
59.58	305	59.58	351.6667
59.77	321.6667	59.77	311.6667
59.96	323.3333	59.96	328.3333
60.15	285	60.15	305
60.34	333.3333	60.34	278.3333
60.53	335	60.53	308.3333
60.72	308.3333	60.72	355
60.91	313.3333	60.91	306.6667
61.1	313.3333	61.1	318.3333
61.29	336.6667	61.29	341.6667
61.48	321.6667	61.48	331.6667
61.67	378.3333	61.67	313.3333
61.86	370	61.86	371.6667
62.05	356.6667	62.05	348.3333
62.24	370	62.24	353.3333
62.43	336.6667	62.43	378.3333
62.62	366.6667	62.62	386.6667
62.81	406.6667	62.81	328.3333
63	360	63	383.3333
63.19	326.6667	63.19	376.6667
63.38	441.6667	63.38	378.3333
63.57	386.6667	63.57	361.6667
63.76	376.6667	63.76	405
63.95	363.3333	63.95	411.6667
64.14	358.3333	64.14	405
64.33	398.3333	64.33	403.3333
64.52	360	64.52	403.3333
64.71	368.3333	64.71	395
64.9	371.6667	64.9	403.3333
65.09	366.6667	65.09	341.6667
65.28	401.6667	65.28	335
65.47	376.6667	65.47	355
65.66	370	65.66	348.3333
65.85	346.6667	65.85	370
66.04	400	66.04	316.6667
66.23	338.3333	66.23	326.6667
66.42	315	66.42	361.6667
66.61	418.3333	66.61	340
66.8	338.3333	66.8	358.3333
66.99	353.3333	66.99	360
67.18	355	67.18	328.3333
67.37	343.3333	67.37	356.6667
67.56	338.3333	67.56	360
67.75	328.3333	67.75	356.6667
67.94	343.3333	67.94	298.3333
68.13	318.3333	68.13	338.3333
68.32	338.3333	68.32	361.6667
68.51	293.3333	68.51	326.6667
68.7	300	68.7	300
68.89	310	68.89	320
69.08	311.6667	69.08	315
69.27	290	69.27	308.3333
69.46	306.6667	69.46	293.3333
69.65	278.3333	69.65	281.6667
69.84	306.6667	69.84	273.3333
70.03	320	70.03	338.3333
70.22	290	70.22	311.6667
70.41	290	70.41	278.3333
70.6	336.6667	70.6	270
70.79	280	70.79	266.6667
70.98	303.3333	70.98	313.3333
71.17	283.3333	71.17	263.3333
71.36	295	71.36	306.6667
71.55	308.3333	71.55	318.3333
71.74	311.6667	71.74	318.3333
71.93	305	71.93	311.6667
72.12	286.6667	72.12	305
72.31	316.6667	72.31	285
72.5	311.6667	72.5	278.3333
72.69	291.6667	72.69	285
72.88	291.6667	72.88	313.3333
73.07	278.3333	73.07	300
73.26	286.6667	73.26	320
73.45	263.3333	73.45	288.3333
73.64	306.6667	73.64	246.6667
73.83	308.3333	73.83	296.6667
74.02	306.6667	74.02	275
74.21	278.3333	74.21	301.6667
74.4	285	74.4	301.6667
74.59	291.6667	74.59	293.3333
74.78	286.6667	74.78	298.3333
74.97	303.3333	74.97	323.3333
75.16	271.6667	75.16	286.6667
75.35	296.6667	75.35	340
75.54	308.3333	75.54	295
75.73	316.6667	75.73	323.3333
75.92	315	75.92	285
76.11	333.3333	76.11	310
76.3	271.6667	76.3	285
76.49	271.6667	76.49	298.3333
76.68	248.3333	76.68	273.3333
76.87	268.3333	76.87	320
77.06	300	77.06	263.3333
77.25	316.6667	77.25	311.6667
77.44	265	77.44	290
77.63	293.3333	77.63	265
77.82	295	77.82	310
78.01	291.6667	78.01	298.3333
78.2	275	78.2	263.3333
78.39	275	78.39	278.3333
78.58	253.3333	78.58	275
78.77	285	78.77	251.6667
78.96	255	78.96	263.3333
79.15	268.3333	79.15	258.3333
79.34	316.6667	79.34	265
79.53	236.6667	79.53	231.6667
79.72	260	79.72	223.3333
79.91	258.3333	79.91	245
80	205	80	256.6667