Folder: nomad-auto-xrd/src/nomad_auto_xrd/example_uploads/getting_started/Spectra

Note: src/nomad_auto_xrd/example_uploads/getting_started/README.md
# ğŸš€ XRD Auto Analyzer with NOMAD
Welcome! This tutorial will guide you through training a model using XRD-AutoAnalyzer in NOMAD. After training, you can archive the model, making it easy to find, share, and use for automatic analysis of your XRD patterns. ğŸ“Š

## ğŸ“ What's inside?
Youâ€™ll find a folder called All_CIFs. This contains structure files that can be used to train the model on a specific chemical space. The model will learn to identify if any of these structures match your XRD pattern! ğŸ”

> **Note:** You can easily replace these CIF files with those relevant to your chemical space of interest, so the model is trained specifically for your study. ğŸ§ªğŸ”¬

## ğŸ› ï¸ How to get started
Follow the steps below to train the model using the provided CIF files, or feel free to add your own:

1. Click on the FILES tab and open train-xrd-cnn.ipynb.
2. Launch the notebook in Jupyter. If Jupyter is already running, stop it and start a new session.
3. Follow the instructions in the notebook to complete the tutorial. ğŸ§‘â€ğŸ’»

File: mittma_0015_FR_0-Copy1.0_1point.xy
25	5315
25.19	5365
25.38	5200
25.57	5130
25.76	5140
25.95	4835
26.14	4815
26.33	4950
26.52	4845
26.71	4610
26.9	4540
27.09	4480
27.28	4390
27.47	4420
27.66	4205
27.85	4370
28.04	4685
28.23	7430
28.42	5385
28.61	4020
28.8	4225
28.99	3915
29.18	3905
29.37	4815
29.56	3745
29.75	3935
29.94	3755
30.13	3450
30.32	3480
30.51	3430
30.7	3250
30.89	3495
31.08	3425
31.27	3090
31.46	3210
31.65	3390
31.84	4365
32.03	4485
32.22	2955
32.41	3040
32.6	2920
32.79	2885
32.98	2620
33.17	2820
33.36	2615
33.55	2795
33.74	2530
33.93	2370
34.12	2665
34.31	2420
34.5	2460
34.69	2405
34.88	2485
35.07	2390
35.26	2200
35.45	2200
35.64	2165
35.83	2325
36.02	2065
36.21	2055
36.4	2015
36.59	2005
36.78	2300
36.97	1985
37.16	1945
37.35	1980
37.54	1885
37.73	1960
37.92	1915
38.11	1625
38.3	1790
38.49	1745
38.68	1735
38.87	1565
39.06	1735
39.25	1760
39.44	1700
39.63	1600
39.82	1615
40.01	1570
40.2	1635
40.39	1585
40.58	1620
40.77	1515
40.96	1560
41.15	1680
41.34	1625
41.53	1515
41.72	1445
41.91	1495
42.1	1340
42.29	1315
42.48	1390
42.67	1295
42.86	1235
43.05	1155
43.24	1255
43.43	1405
43.62	1240
43.81	1195
44	1285
44.19	1275
44.38	1175
44.57	1140
44.76	1145
44.95	1305
45.14	1225
45.33	1095
45.52	1135
45.71	1050
45.9	1230
46.09	1040
46.28	1045
46.47	1010
46.66	1075
46.85	1165
47.04	1250
47.23	1095
47.42	1020
47.61	915
47.8	970
47.99	995
48.18	910
48.37	1045
48.56	1055
48.75	935
48.94	880
49.13	930
49.32	1070
49.51	1020
49.7	1135
49.89	1520
50.08	1845
50.27	1305
50.46	980
50.65	985
50.84	875
51.03	975
51.22	850
51.41	870
51.6	880
51.79	865
51.98	820
52.17	815
52.36	960
52.55	835
52.74	825
52.93	705
53.12	735
53.31	875
53.5	995
53.69	1335
53.88	1210
54.07	885
54.26	905
54.45	850
54.64	790
54.83	805
55.02	755
55.21	740
55.4	780
55.59	780
55.78	700
55.97	670
56.16	765
56.35	790
56.54	840
56.73	740
56.92	700
57.11	780
57.3	795
57.49	800
57.68	845
57.87	765
58.06	810
58.25	730
58.44	905
58.63	845
58.82	870
59.01	1025
59.2	975
59.39	935
59.58	855
59.77	855
59.96	915
60.15	840
60.34	905
60.53	900
60.72	960
60.91	805
61.1	990
61.29	1005
61.48	965
61.67	905
61.86	815
62.05	890
62.24	1075
62.43	1065
62.62	900
62.81	915
63	970
63.19	1085
63.38	950
63.57	870
63.76	1065
63.95	1105
64.14	955
64.33	1040
64.52	1075
64.71	1130
64.9	945
65.09	1060
65.28	1020
65.47	1030
65.66	1045
65.85	930
66.04	1080
66.23	995
66.42	895
66.61	1045
66.8	920
66.99	935
67.18	750
67.37	950
67.56	1000
67.75	930
67.94	995
68.13	895
68.32	890
68.51	805
68.7	840
68.89	885
69.08	860
69.27	790
69.46	820
69.65	805
69.84	750
70.03	785
70.22	795
70.41	885
70.6	815
70.79	825
70.98	875
71.17	700
71.36	875
71.55	805
71.74	770
71.93	775
72.12	795
72.31	705
72.5	880
72.69	700
72.88	875
73.07	825
73.26	740
73.45	790
73.64	690
73.83	780
74.02	735
74.21	825
74.4	765
74.59	770
74.78	810
74.97	850
75.16	770
75.35	890
75.54	640
75.73	890
75.92	840
76.11	825
76.3	780
76.49	905
76.68	925
76.87	780
77.06	780
77.25	790
77.44	820
77.63	785
77.82	705
78.01	745
78.2	740
78.39	685
78.58	730
78.77	795
78.96	710
79.15	705
79.34	800
79.53	685
79.72	670
79.91	690
80	685